{
  "resourceType": "Flag",
  "id": "04bc263e-af5d-4b78-81ab-d527f2ebc839",
  "fhir_comments": [
    " UpdateFlagResponseBody-example.xml "
  ],
  "meta": {
    "profile": [
      "https://fhir.nhs.uk/STU3/StructureDefinition/RARecord-Flag-1"
    ]
  },
  "contained": [
    {
      "resourceType": "Provenance",
      "id": "de615f06-41d7-4659-b543-b401ece571cb",
      "meta": {
        "profile": [
          "https://fhir.nhs.uk/STU3/StructureDefinition/RARecord-Provenance-1"
        ]
      },
      "target": [
        {
          "reference": "04bc263e-af5d-4b78-81ab-d527f2ebc839"
        }
      ],
      "recorded": "2016-03-01T10:05:33+00:00",
      "agent": [
        {
          "role": [
            {
              "coding": [
                {
                  "system": "https://fhir.nhs.uk/STU3/CodeSystem/CareConnect-SDSJobRoleName-1",
                  "code": "R0260",
                  "display": "General Medical Practitioner"
                }
              ]
            }
          ],
          "whoReference": {
            "reference": "https://sds.spineservices.nhs.uk/STU3/Practitioner/2ee4tr6a9",
            "display": "Dr.D"
          },
          "onBehalfOfReference": {
            "reference": "https://directory.spineservices.nhs.uk/STU3/Organization/a3e5i7",
            "display": "Some GP Clinic"
          }
        }
      ]
    },
    {
      "resourceType": "Provenance",
      "id": "916be0f8-be88-4d12-b3a9-4077ed05292e",
      "meta": {
        "profile": [
          "https://fhir.nhs.uk/STU3/StructureDefinition/RARecord-Provenance-1"
        ]
      },
      "target": [
        {
          "reference": "04bc263e-af5d-4b78-81ab-d527f2ebc839"
        }
      ],
      "recorded": "2016-03-01T10:05:33+00:00",
      "agent": [
        {
          "role": [
            {
              "coding": [
                {
                  "system": "https://fhir.nhs.uk/STU3/CodeSystem/CareConnect-SDSJobRoleName-1",
                  "code": "R0260",
                  "display": "General Medical Practitioner"
                }
              ]
            }
          ],
          "whoReference": {
            "reference": "https://sds.spineservices.nhs.uk/STU3/Practitioner/2ee4tr6a9",
            "display": "Dr.D"
          },
          "onBehalfOfReference": {
            "reference": "https://directory.spineservices.nhs.uk/STU3/Organization/a3e5i7",
            "display": "Some GP Clinic"
          }
        }
      ]
    }
  ],
  "extension": [
    {
      "url": "https://fhir.nhs.uk/STU3/StructureDefinition/Extension-RARecord-Provenance-1",
      "extension": [
        {
          "url": "created",
          "valueReference": {
            "reference": "#de615f06-41d7-4659-b543-b401ece571cb"
          }
        },
        {
          "url": "updated",
          "valueReference": {
            "reference": "#916be0f8-be88-4d12-b3a9-4077ed05292e"
          }
        }
      ]
    },
    {
      "url": "https://fhir.nhs.uk/STU3/StructureDefinition/Extension-RARecord-RemovalReason-1",
      "valueCodeableConcept": {
        "coding": [
          {
            "system": "https://fhir.nhs.uk/STU3/CodeSystem/CodeSystem-RARecord-RemovalReason-1",
            "code": "Error",
            "display": "The Reasonable Adjustment Flag was created in error"
          }
        ]
      }
    },
    {
      "url": "https://fhir.nhs.uk/STU3/StructureDefinition/Extension-RARecord-AdjustmentCategory-1",
      "valueCodeableConcept": {
        "coding": [
          {
            "system": "https://fhir.nhs.uk/STU3/CodeSystem/CodeSystem-RARecord-AdjustmentCategories-1",
            "code": "comms",
            "display": "Communication"
          }
        ]
      }
    }
  ],
  "status": "inactive",
  "category": {
    "coding": [
      {
        "system": "https://fhir.nhs.uk/STU3/CodeSystem/CodeSystem-RARecord-FlagCategory-1",
        "code": "reasonable adjustments flag",
        "display": "Reasonable Adjustments Flag"
      }
    ]
  },
  "code": {
    "coding": [
      {
        "system": "https://fhir.nhs.uk/STU3/CodeSystem/CodeSystem-RARecord-AccessibleInformationAdjustments-1",
        "code": "requiresinformationineasyread",
        "display": "Requires information in Easyread"
      }
    ]
  },
  "subject": {
    "identifier": {
      "system": "https://fhir.nhs.uk/Id/nhs-number",
      "value": "999999998"
    }
  }
}