{
  "resourceType": "Bundle",
  "id": "7d58f378-282e-48f0-b6b3-3f78d5870502",
  "meta": {
    "versionId": "ded2da33-64c9-4c8d-8e3a-6a037823d0c6",
    "lastUpdated": "2018-07-24T10:00:01+00:00",
    "profile": [
      "http://hl7.org/fhir/bundle"
    ]
  },
  "type": "searchset",
  "total": 2,
  "link": [
    {
      "relation": "self",
      "url": "https://clinicals.spineservices.nhs.uk/STU3/Condition?_list=4c8d19af-7755-4954-93df-93c964ddf349&clinical-status=active&_format=xml"
    }
  ],
  "entry": [
    {
      "fullUrl": "https://clinicals.spineservices.nhs.uk/STU3/Condition/6c1ccd3f-765e-41d8-b5c0-2a0317908502",
      "resource": {
        "resourceType": "Condition",
        "id": "6c1ccd3f-765e-41d8-b5c0-2a0317908502",
        "meta": {
          "versionId": "e36bfb0d-1cb9-47d0-bd44-15c56b0c11b4",
          "lastUpdated": "2018-03-01T10:00:00+00:00",
          "profile": [
            "https://fhir.nhs.uk/STU3/StructureDefinition/CareConnect-RARecord-Condition-1"
          ]
        },
        "contained": [
          {
            "resourceType": "Provenance",
            "id": "8ce7de6b-1307-432d-8e96-ae6a613ca3e4",
            "meta": {
              "profile": [
                "https://fhir.nhs.uk/STU3/StructureDefinition/RARecord-Provenance-1"
              ]
            },
            "target": [
              {
                "reference": "Condition/6c1ccd3f-765e-41d8-b5c0-2a0317908502"
              }
            ],
            "recorded": "2016-03-01T10:05:33+00:00",
            "agent": [
              {
                "role": [
                  {
                    "coding": [
                      {
                        "system": "https://fhir.nhs.uk/STU3/CodeSystem/CareConnect-SDSJobRoleName-1",
                        "code": "R0260",
                        "display": "General Medical Practitioner"
                      }
                    ]
                  }
                ],
                "whoReference": {
                  "reference": "https://sds.spineservices.nhs.uk/STU3/Practitioner/2ee4tr6a9",
                  "display": "Dr.D"
                },
                "onBehalfOfReference": {
                  "reference": "https://directory.spineservices.nhs.uk/STU3/Organization/a3e5i7",
                  "display": "Some GP Clinic"
                }
              }
            ]
          }
        ],
        "extension": [
          {
            "url": "https://fhir.nhs.uk/STU3/StructureDefinition/Extension-RARecord-Provenance-1",
            "extension": [
              {
                "url": "created",
                "valueReference": {
                  "reference": "#8ce7de6b-1307-432d-8e96-ae6a613ca3e4"
                }
              }
            ]
          }
        ],
        "clinicalStatus": "active",
        "category": [
          {
            "coding": [
              {
                "system": "https://fhir.hl7.org.uk/STU3/CodeSystem/CareConnect-ConditionCategory-1",
                "code": "issue",
                "display": "Issue"
              }
            ]
          }
        ],
        "code": {
          "coding": [
            {
              "system": "https://fhir.nhs.uk/STU3/CodeSystem/CodeSystem-RARecord-ConditionCode-1",
              "code": "1855002",
              "display": "Learning Disability(s)"
            }
          ]
        }
      },
      "search": {
        "mode": "match"
      }
    },
    {
      "fullUrl": "https://clinicals.spineservices.nhs.uk/STU3/Condition/13aec731-02c5-42a2-b863-de889479e777",
      "resource": {
        "resourceType": "Condition",
        "id": "13aec731-02c5-42a2-b863-de889479e777",
        "meta": {
          "versionId": "cf8e1249-dfa6-4003-9745-d1b213008c95",
          "lastUpdated": "2018-03-01T10:01:00+00:00",
          "profile": [
            "https://fhir.nhs.uk/STU3/StructureDefinition/CareConnect-RARecord-Condition-1"
          ]
        },
        "contained": [
          {
            "resourceType": "Provenance",
            "id": "8ce7de6b-1307-432d-8e96-ae6a613ca3e4",
            "meta": {
              "profile": [
                "https://fhir.nhs.uk/STU3/StructureDefinition/RARecord-Provenance-1"
              ]
            },
            "target": [
              {
                "reference": "Condition/13aec731-02c5-42a2-b863-de889479e777"
              }
            ],
            "recorded": "2016-03-01T10:05:33+00:00",
            "agent": [
              {
                "role": [
                  {
                    "coding": [
                      {
                        "system": "https://fhir.nhs.uk/STU3/CodeSystem/CareConnect-SDSJobRoleName-1",
                        "code": "R0260",
                        "display": "General Medical Practitioner"
                      }
                    ]
                  }
                ],
                "whoReference": {
                  "reference": "https://sds.spineservices.nhs.uk/STU3/Practitioner/2ee4tr6a9",
                  "display": "Dr.D"
                },
                "onBehalfOfReference": {
                  "reference": "https://directory.spineservices.nhs.uk/STU3/Organization/a3e5i7",
                  "display": "Some GP Clinic"
                }
              }
            ]
          }
        ],
        "extension": [
          {
            "url": "https://fhir.nhs.uk/STU3/StructureDefinition/Extension-RARecord-Provenance-1",
            "extension": [
              {
                "url": "created",
                "valueReference": {
                  "reference": "#8ce7de6b-1307-432d-8e96-ae6a613ca3e4"
                }
              }
            ]
          }
        ],
        "clinicalStatus": "active",
        "category": [
          {
            "coding": [
              {
                "system": "https://fhir.hl7.org.uk/STU3/CodeSystem/CareConnect-ConditionCategory-1",
                "code": "issue",
                "display": "Issue"
              }
            ]
          }
        ],
        "code": {
          "coding": [
            {
              "system": "https://fhir.nhs.uk/STU3/CodeSystem/CodeSystem-RARecord-ConditionCode-1",
              "code": "720821000000105",
              "display": "Mental health condition(s)"
            }
          ],
          "text": "Patient diagnosed with Stranger anxiety (disorder). Consider home-visit"
        }
      },
      "search": {
        "mode": "match"
      }
    }
  ]
}